Folder: neoexchange/neoexchange/photometrics/data

Note: README.md
# NEO Exchange

Portal for scheduling observations of NEOs using LCOGT

## History

### 1.5.3

Switch over 2 telescopes at South Africa (K91 & K92) to Sinistro. Filter out proposals with <10 blocks from the block efficiency plot.

### 1.5.2

### 1.5.1

Correct a long-running problem where we didn't correct the Frame midpoint for
half of the exposure time for our own frames. Store FWHM in the Frame objects
when creating.

### 1.5.0

Django 1.10 release

### 1.4.6
Prevent creation of Bodies without orbital elements. Add 0.4m site codes for
proper attribution when creating frames. Fix missing `.fits` extensions in archive
replies when creating Frames.

### 1.4.5
Fix for Arecibo object parsing.

### 1.4.4
Adding short delay when polling MPC for object info.

### 1.4.3
Adding support for new Sinistro (K93) camera at CPT

### 1.4.2
Better comet handling

### 1.4.1
Better support for new request and frame APIs

### 1.4.0
- Adding support for new request and frame APIs

### 1.3.0
- Restructuring frame parsing out of `views.py`

### 1.2.5alpha
- Moon phase on homepage

File: Bare_Ag_mirror.dat
# Reflectance curve for bare, recoated silver mirrors
# Source: A. N. Wilson "Reflecting Telescope Optics II", p426
# Wavelength (nm) Reflectance (%)
220     28.0
240     29.5
260     29.2
280     25.2
300     17.6
315      5.5
320      8.9
340     72.9
360     88.2
380     92.8
400     95.6
450     97.1
500     97.9
550     98.3
600     98.6
650     98.8
700     98.9
750     99.1
800     99.2
850     99.2
900     99.3
950     99.3
1000    99.4
1500    99.4
2000    99.4
3000    99.4
4000    99.4
5000    99.5
6000    99.5
7000    99.5
8000    99.5
9000    99.5
10000   99.5
15000   99.6
20000   99.6
30000   99.6

File: Bare_Al_mirror.dat
# Reflectance curve for bare, recoated aluminium mirrors
# Source: A. N. Wilson "Reflecting Telescope Optics II", p426
# Wavelength (nm) Reflectance (%)
220     91.5
240     91.9
260     92.2
280     92.3
300     92.3
315     92.4
320     92.4
340     92.5
360     92.5
380     92.5
400     92.4
450     92.2
500     91.8
550     91.5
600     91.1
650     90.5
700     89.7
750     88.6
800     86.7
850     86.7
900     89.1
950     92.4
1000    94.0
1500    97.4
2000    97.8
3000    98.0
4000    98.2
5000    98.4
6000    98.5
7000    98.6
8000    98.7
9000    98.7
10000   98.7
15000   98.9
20000   99.0
30000   99.2

File: FLOYDS_AG_lens.dat
# From https://spectroscopy.wordpress.com/2011/03/27/measuring-transmission-for-canon-ef-200mm-f2-8l-ii/
# for Canon 100mm macro lens (hopefully close)
# Wavelength (nm) Transmission (%)
375.0   51.0
400.0   78.0
425.0   84.0
450.0   90.0
475.0   91.0
500.0   92.0
525.0   93.0
550.0   94.0
575.0   94.0
600.0   94.0
625.0   92.0
650.0   90.5
675.0   89.0
700.0   88.0
725.0   78.0
750.0   69.0
775.0   61.0
800.0   52.0

File: FLOYDS_AR_coating.dat
# Wavelength (nm) Transmission (%) Reflectivity (%)
300  95.0   5.0
350  99.925 0.075
400  98.8   1.2
450  99.3   0.7
500  98.86  1.14
550  98.75  1.25
600  99.15  0.85
650  99.1   0.9
700  98.9   1.1
750  98.7   1.3
800  98.7   1.3
850  98.85  1.15
900  98.95  1.05
950  98.9   1.1
1000 98.6   1.4
1050 98.1   1.9
1100 97.4   2.6

File: FLOYDS_grating.dat
# Wavelength (nm) Reflectivity (%)
300  0.0
350  2.0
400  5.0
450  22.5
500  40.0
550  60.0
600  75.0
650  84.0
700  88.0
750  87.0
800  89.0
850  86.0
900  85.0
950  82.5
1000 76.0
1050 74.0
1100 70.0